# columns ptv
# pressure GPa
# temperature K
# volume bohr^3
# nelectrons 8
# natoms 2
#  p(GPa)      T(K)   V(bohr^3) 
      0.0000       0.00    76.5627  
     20.0000       0.00    73.4516  
     40.0000       0.00    70.8447  
     60.0000       0.00    68.6052  
     80.0000       0.00    66.6453  
    100.0000       0.00    64.9049  
    120.0000       0.00    63.3415  
    140.0000       0.00    61.9236  
    160.0000       0.00    60.6276  
    180.0000       0.00    59.4349  
    200.0000       0.00    58.3312  
    220.0000       0.00    57.3047  
    240.0000       0.00    56.3459  
    260.0000       0.00    55.4469  
    280.0000       0.00    54.6013  
    300.0000       0.00    53.8035  
    320.0000       0.00    53.0488  
    340.0000       0.00    52.3331  
    360.0000       0.00    51.6529  
    380.0000       0.00    51.0053  
    400.0000       0.00    50.3874  
    420.0000       0.00    49.7969  
    440.0000       0.00    49.2317  
    460.0000       0.00    48.6899  
    480.0000       0.00    48.1697  
    500.0000       0.00    47.6696  


      0.0000      50.00    76.5627  
     20.0000      50.00    73.4516  
     40.0000      50.00    70.8447  
     60.0000      50.00    68.6052  
     80.0000      50.00    66.6453  
    100.0000      50.00    64.9049  
    120.0000      50.00    63.3415  
    140.0000      50.00    61.9236  
    160.0000      50.00    60.6276  
    180.0000      50.00    59.4349  
    200.0000      50.00    58.3312  
    220.0000      50.00    57.3047  
    240.0000      50.00    56.3459  
    260.0000      50.00    55.4469  
    280.0000      50.00    54.6013  
    300.0000      50.00    53.8035  
    320.0000      50.00    53.0488  
    340.0000      50.00    52.3331  
    360.0000      50.00    51.6529  
    380.0000      50.00    51.0053  
    400.0000      50.00    50.3874  
    420.0000      50.00    49.7969  
    440.0000      50.00    49.2317  
    460.0000      50.00    48.6899  
    480.0000      50.00    48.1697  
    500.0000      50.00    47.6696  


      0.0000     100.00    76.5629  
     20.0000     100.00    73.4518  
     40.0000     100.00    70.8448  
     60.0000     100.00    68.6053  
     80.0000     100.00    66.6454  
    100.0000     100.00    64.9050  
    120.0000     100.00    63.3415  
    140.0000     100.00    61.9237  
    160.0000     100.00    60.6276  
    180.0000     100.00    59.4350  
    200.0000     100.00    58.3312  
    220.0000     100.00    57.3047  
    240.0000     100.00    56.3459  
    260.0000     100.00    55.4470  
    280.0000     100.00    54.6013  
    300.0000     100.00    53.8035  
    320.0000     100.00    53.0488  
    340.0000     100.00    52.3331  
    360.0000     100.00    51.6529  
    380.0000     100.00    51.0053  
    400.0000     100.00    50.3874  
    420.0000     100.00    49.7969  
    440.0000     100.00    49.2317  
    460.0000     100.00    48.6899  
    480.0000     100.00    48.1697  
    500.0000     100.00    47.6696  


      0.0000     150.00    76.5639  
     20.0000     150.00    73.4525  
     40.0000     150.00    70.8453  
     60.0000     150.00    68.6057  
     80.0000     150.00    66.6457  
    100.0000     150.00    64.9053  
    120.0000     150.00    63.3418  
    140.0000     150.00    61.9239  
    160.0000     150.00    60.6278  
    180.0000     150.00    59.4351  
    200.0000     150.00    58.3314  
    220.0000     150.00    57.3048  
    240.0000     150.00    56.3460  
    260.0000     150.00    55.4471  
    280.0000     150.00    54.6014  
    300.0000     150.00    53.8036  
    320.0000     150.00    53.0488  
    340.0000     150.00    52.3331  
    360.0000     150.00    51.6530  
    380.0000     150.00    51.0053  
    400.0000     150.00    50.3874  
    420.0000     150.00    49.7969  
    440.0000     150.00    49.2317  
    460.0000     150.00    48.6899  
    480.0000     150.00    48.1697  
    500.0000     150.00    47.6696  


      0.0000     200.00    76.5667  
     20.0000     200.00    73.4546  
     40.0000     200.00    70.8468  
     60.0000     200.00    68.6069  
     80.0000     200.00    66.6467  
    100.0000     200.00    64.9061  
    120.0000     200.00    63.3425  
    140.0000     200.00    61.9244  
    160.0000     200.00    60.6283  
    180.0000     200.00    59.4356  
    200.0000     200.00    58.3318  
    220.0000     200.00    57.3052  
    240.0000     200.00    56.3463  
    260.0000     200.00    55.4473  
    280.0000     200.00    54.6017  
    300.0000     200.00    53.8038  
    320.0000     200.00    53.0490  
    340.0000     200.00    52.3333  
    360.0000     200.00    51.6531  
    380.0000     200.00    51.0054  
    400.0000     200.00    50.3875  
    420.0000     200.00    49.7970  
    440.0000     200.00    49.2318  
    460.0000     200.00    48.6900  
    480.0000     200.00    48.1698  
    500.0000     200.00    47.6697  


      0.0000     250.00    76.5728  
     20.0000     250.00    73.4589  
     40.0000     250.00    70.8502  
     60.0000     250.00    68.6095  
     80.0000     250.00    66.6487  
    100.0000     250.00    64.9078  
    120.0000     250.00    63.3439  
    140.0000     250.00    61.9257  
    160.0000     250.00    60.6293  
    180.0000     250.00    59.4365  
    200.0000     250.00    58.3326  
    220.0000     250.00    57.3059  
    240.0000     250.00    56.3470  
    260.0000     250.00    55.4479  
    280.0000     250.00    54.6022  
    300.0000     250.00    53.8043  
    320.0000     250.00    53.0494  
    340.0000     250.00    52.3336  
    360.0000     250.00    51.6534  
    380.0000     250.00    51.0057  
    400.0000     250.00    50.3878  
    420.0000     250.00    49.7972  
    440.0000     250.00    49.2320  
    460.0000     250.00    48.6901  
    480.0000     250.00    48.1699  
    500.0000     250.00    47.6698  


      0.0000     300.00    76.5832  
     20.0000     300.00    73.4665  
     40.0000     300.00    70.8559  
     60.0000     300.00    68.6140  
     80.0000     300.00    66.6524  
    100.0000     300.00    64.9108  
    120.0000     300.00    63.3464  
    140.0000     300.00    61.9279  
    160.0000     300.00    60.6312  
    180.0000     300.00    59.4381  
    200.0000     300.00    58.3340  
    220.0000     300.00    57.3072  
    240.0000     300.00    56.3481  
    260.0000     300.00    55.4489  
    280.0000     300.00    54.6031  
    300.0000     300.00    53.8050  
    320.0000     300.00    53.0501  
    340.0000     300.00    52.3343  
    360.0000     300.00    51.6540  
    380.0000     300.00    51.0062  
    400.0000     300.00    50.3882  
    420.0000     300.00    49.7976  
    440.0000     300.00    49.2323  
    460.0000     300.00    48.6904  
    480.0000     300.00    48.1702  
    500.0000     300.00    47.6700  


      0.0000     350.00    76.5983  
     20.0000     350.00    73.4778  
     40.0000     350.00    70.8647  
     60.0000     350.00    68.6210  
     80.0000     350.00    66.6581  
    100.0000     350.00    64.9155  
    120.0000     350.00    63.3504  
    140.0000     350.00    61.9313  
    160.0000     350.00    60.6342  
    180.0000     350.00    59.4408  
    200.0000     350.00    58.3363  
    220.0000     350.00    57.3092  
    240.0000     350.00    56.3499  
    260.0000     350.00    55.4505  
    280.0000     350.00    54.6045  
    300.0000     350.00    53.8063  
    320.0000     350.00    53.0512  
    340.0000     350.00    52.3353  
    360.0000     350.00    51.6549  
    380.0000     350.00    51.0070  
    400.0000     350.00    50.3889  
    420.0000     350.00    49.7982  
    440.0000     350.00    49.2329  
    460.0000     350.00    48.6909  
    480.0000     350.00    48.1706  
    500.0000     350.00    47.6705  


      0.0000     400.00    76.6183  
     20.0000     400.00    73.4930  
     40.0000     400.00    70.8766  
     60.0000     400.00    68.6306  
     80.0000     400.00    66.6660  
    100.0000     400.00    64.9221  
    120.0000     400.00    63.3561  
    140.0000     400.00    61.9362  
    160.0000     400.00    60.6385  
    180.0000     400.00    59.4445  
    200.0000     400.00    58.3396  
    220.0000     400.00    57.3121  
    240.0000     400.00    56.3525  
    260.0000     400.00    55.4528  
    280.0000     400.00    54.6066  
    300.0000     400.00    53.8082  
    320.0000     400.00    53.0529  
    340.0000     400.00    52.3368  
    360.0000     400.00    51.6562  
    380.0000     400.00    51.0082  
    400.0000     400.00    50.3900  
    420.0000     400.00    49.7992  
    440.0000     400.00    49.2338  
    460.0000     400.00    48.6917  
    480.0000     400.00    48.1714  
    500.0000     400.00    47.6711  


      0.0000     450.00    76.6429  
     20.0000     450.00    73.5119  
     40.0000     450.00    70.8916  
     60.0000     450.00    68.6428  
     80.0000     450.00    66.6761  
    100.0000     450.00    64.9307  
    120.0000     450.00    63.3635  
    140.0000     450.00    61.9426  
    160.0000     450.00    60.6441  
    180.0000     450.00    59.4494  
    200.0000     450.00    58.3440  
    220.0000     450.00    57.3161  
    240.0000     450.00    56.3561  
    260.0000     450.00    55.4560  
    280.0000     450.00    54.6095  
    300.0000     450.00    53.8108  
    320.0000     450.00    53.0553  
    340.0000     450.00    52.3389  
    360.0000     450.00    51.6581  
    380.0000     450.00    51.0099  
    400.0000     450.00    50.3916  
    420.0000     450.00    49.8007  
    440.0000     450.00    49.2351  
    460.0000     450.00    48.6930  
    480.0000     450.00    48.1725  
    500.0000     450.00    47.6722  


      0.0000     500.00    76.6716  
     20.0000     500.00    73.5343  
     40.0000     500.00    70.9095  
     60.0000     500.00    68.6575  
     80.0000     500.00    66.6884  
    100.0000     500.00    64.9412  
    120.0000     500.00    63.3726  
    140.0000     500.00    61.9505  
    160.0000     500.00    60.6511  
    180.0000     500.00    59.4557  
    200.0000     500.00    58.3496  
    220.0000     500.00    57.3211  
    240.0000     500.00    56.3606  
    260.0000     500.00    55.4601  
    280.0000     500.00    54.6132  
    300.0000     500.00    53.8141  
    320.0000     500.00    53.0583  
    340.0000     500.00    52.3417  
    360.0000     500.00    51.6607  
    380.0000     500.00    51.0123  
    400.0000     500.00    50.3937  
    420.0000     500.00    49.8026  
    440.0000     500.00    49.2369  
    460.0000     500.00    48.6946  
    480.0000     500.00    48.1740  
    500.0000     500.00    47.6736  


      0.0000     550.00    76.7041  
     20.0000     550.00    73.5598  
     40.0000     550.00    70.9301  
     60.0000     550.00    68.6745  
     80.0000     550.00    66.7028  
    100.0000     550.00    64.9536  
    120.0000     550.00    63.3833  
    140.0000     550.00    61.9600  
    160.0000     550.00    60.6595  
    180.0000     550.00    59.4632  
    200.0000     550.00    58.3563  
    220.0000     550.00    57.3272  
    240.0000     550.00    56.3661  
    260.0000     550.00    55.4651  
    280.0000     550.00    54.6177  
    300.0000     550.00    53.8183  
    320.0000     550.00    53.0621  
    340.0000     550.00    52.3451  
    360.0000     550.00    51.6639  
    380.0000     550.00    51.0152  
    400.0000     550.00    50.3964  
    420.0000     550.00    49.8051  
    440.0000     550.00    49.2392  
    460.0000     550.00    48.6967  
    480.0000     550.00    48.1760  
    500.0000     550.00    47.6754  


      0.0000     600.00    76.7398  
     20.0000     600.00    73.5881  
     40.0000     600.00    70.9531  
     60.0000     600.00    68.6937  
     80.0000     600.00    66.7191  
    100.0000     600.00    64.9677  
    120.0000     600.00    63.3956  
    140.0000     600.00    61.9708  
    160.0000     600.00    60.6692  
    180.0000     600.00    59.4719  
    200.0000     600.00    58.3642  
    220.0000     600.00    57.3343  
    240.0000     600.00    56.3725  
    260.0000     600.00    55.4710  
    280.0000     600.00    54.6231  
    300.0000     600.00    53.8232  
    320.0000     600.00    53.0666  
    340.0000     600.00    52.3493  
    360.0000     600.00    51.6677  
    380.0000     600.00    51.0187  
    400.0000     600.00    50.3997  
    420.0000     600.00    49.8082  
    440.0000     600.00    49.2420  
    460.0000     600.00    48.6994  
    480.0000     600.00    48.1785  
    500.0000     600.00    47.6777  


      0.0000     650.00    76.7783  
     20.0000     650.00    73.6188  
     40.0000     650.00    70.9782  
     60.0000     650.00    68.7147  
     80.0000     650.00    66.7371  
    100.0000     650.00    64.9832  
    120.0000     650.00    63.4093  
    140.0000     650.00    61.9830  
    160.0000     650.00    60.6800  
    180.0000     650.00    59.4817  
    200.0000     650.00    58.3731  
    220.0000     650.00    57.3424  
    240.0000     650.00    56.3799  
    260.0000     650.00    55.4778  
    280.0000     650.00    54.6293  
    300.0000     650.00    53.8289  
    320.0000     650.00    53.0719  
    340.0000     650.00    52.3542  
    360.0000     650.00    51.6722  
    380.0000     650.00    51.0229  
    400.0000     650.00    50.4035  
    420.0000     650.00    49.8118  
    440.0000     650.00    49.2454  
    460.0000     650.00    48.7025  
    480.0000     650.00    48.1814  
    500.0000     650.00    47.6805  


      0.0000     700.00    76.8193  
     20.0000     700.00    73.6516  
     40.0000     700.00    71.0052  
     60.0000     700.00    68.7375  
     80.0000     700.00    66.7566  
    100.0000     700.00    65.0002  
    120.0000     700.00    63.4242  
    140.0000     700.00    61.9963  
    160.0000     700.00    60.6920  
    180.0000     700.00    59.4925  
    200.0000     700.00    58.3829  
    220.0000     700.00    57.3513  
    240.0000     700.00    56.3881  
    260.0000     700.00    55.4853  
    280.0000     700.00    54.6362  
    300.0000     700.00    53.8353  
    320.0000     700.00    53.0778  
    340.0000     700.00    52.3596  
    360.0000     700.00    51.6773  
    380.0000     700.00    51.0276  
    400.0000     700.00    50.4080  
    420.0000     700.00    49.8159  
    440.0000     700.00    49.2493  
    460.0000     700.00    48.7061  
    480.0000     700.00    48.1848  
    500.0000     700.00    47.6837  


      0.0000     750.00    76.8625  
     20.0000     750.00    73.6864  
     40.0000     750.00    71.0339  
     60.0000     750.00    68.7617  
     80.0000     750.00    66.7774  
    100.0000     750.00    65.0184  
    120.0000     750.00    63.4404  
    140.0000     750.00    62.0107  
    160.0000     750.00    60.7050  
    180.0000     750.00    59.5042  
    200.0000     750.00    58.3936  
    220.0000     750.00    57.3611  
    240.0000     750.00    56.3971  
    260.0000     750.00    55.4936  
    280.0000     750.00    54.6439  
    300.0000     750.00    53.8424  
    320.0000     750.00    53.0844  
    340.0000     750.00    52.3657  
    360.0000     750.00    51.6829  
    380.0000     750.00    51.0329  
    400.0000     750.00    50.4129  
    420.0000     750.00    49.8205  
    440.0000     750.00    49.2536  
    460.0000     750.00    48.7102  
    480.0000     750.00    48.1887  
    500.0000     750.00    47.6874  


      0.0000     800.00    76.9075  
     20.0000     800.00    73.7227  
     40.0000     800.00    71.0640  
     60.0000     800.00    68.7872  
     80.0000     800.00    66.7994  
    100.0000     800.00    65.0377  
    120.0000     800.00    63.4575  
    140.0000     800.00    62.0261  
    160.0000     800.00    60.7188  
    180.0000     800.00    59.5168  
    200.0000     800.00    58.4051  
    220.0000     800.00    57.3717  
    240.0000     800.00    56.4068  
    260.0000     800.00    55.5025  
    280.0000     800.00    54.6522  
    300.0000     800.00    53.8501  
    320.0000     800.00    53.0915  
    340.0000     800.00    52.3724  
    360.0000     800.00    51.6892  
    380.0000     800.00    51.0387  
    400.0000     800.00    50.4183  
    420.0000     800.00    49.8256  
    440.0000     800.00    49.2584  
    460.0000     800.00    48.7148  
    480.0000     800.00    48.1930  
    500.0000     800.00    47.6914  


      0.0000     850.00    76.9543  
     20.0000     850.00    73.7606  
     40.0000     850.00    71.0955  
     60.0000     850.00    68.8139  
     80.0000     850.00    66.8226  
    100.0000     850.00    65.0580  
    120.0000     850.00    63.4755  
    140.0000     850.00    62.0423  
    160.0000     850.00    60.7335  
    180.0000     850.00    59.5302  
    200.0000     850.00    58.4173  
    220.0000     850.00    57.3829  
    240.0000     850.00    56.4172  
    260.0000     850.00    55.5121  
    280.0000     850.00    54.6611  
    300.0000     850.00    53.8583  
    320.0000     850.00    53.0992  
    340.0000     850.00    52.3796  
    360.0000     850.00    51.6959  
    380.0000     850.00    51.0450  
    400.0000     850.00    50.4242  
    420.0000     850.00    49.8312  
    440.0000     850.00    49.2636  
    460.0000     850.00    48.7197  
    480.0000     850.00    48.1976  
    500.0000     850.00    47.6959  


      0.0000     900.00    77.0025  
     20.0000     900.00    73.7997  
     40.0000     900.00    71.1281  
     60.0000     900.00    68.8417  
     80.0000     900.00    66.8466  
    100.0000     900.00    65.0792  
    120.0000     900.00    63.4944  
    140.0000     900.00    62.0592  
    160.0000     900.00    60.7489  
    180.0000     900.00    59.5442  
    200.0000     900.00    58.4302  
    220.0000     900.00    57.3948  
    240.0000     900.00    56.4282  
    260.0000     900.00    55.5223  
    280.0000     900.00    54.6705  
    300.0000     900.00    53.8671  
    320.0000     900.00    53.1074  
    340.0000     900.00    52.3872  
    360.0000     900.00    51.7030  
    380.0000     900.00    51.0517  
    400.0000     900.00    50.4306  
    420.0000     900.00    49.8371  
    440.0000     900.00    49.2693  
    460.0000     900.00    48.7250  
    480.0000     900.00    48.2027  
    500.0000     900.00    47.7007  


      0.0000     950.00    77.0520  
     20.0000     950.00    73.8400  
     40.0000     950.00    71.1617  
     60.0000     950.00    68.8703  
     80.0000     950.00    66.8715  
    100.0000     950.00    65.1012  
    120.0000     950.00    63.5140  
    140.0000     950.00    62.0769  
    160.0000     950.00    60.7649  
    180.0000     950.00    59.5589  
    200.0000     950.00    58.4437  
    220.0000     950.00    57.4072  
    240.0000     950.00    56.4397  
    260.0000     950.00    55.5330  
    280.0000     950.00    54.6804  
    300.0000     950.00    53.8764  
    320.0000     950.00    53.1160  
    340.0000     950.00    52.3953  
    360.0000     950.00    51.7106  
    380.0000     950.00    51.0588  
    400.0000     950.00    50.4373  
    420.0000     950.00    49.8435  
    440.0000     950.00    49.2753  
    460.0000     950.00    48.7307  
    480.0000     950.00    48.2081  
    500.0000     950.00    47.7058  


      0.0000    1000.00    77.1027  
     20.0000    1000.00    73.8814  
     40.0000    1000.00    71.1962  
     60.0000    1000.00    68.8998  
     80.0000    1000.00    66.8972  
    100.0000    1000.00    65.1238  
    120.0000    1000.00    63.5343  
    140.0000    1000.00    62.0952  
    160.0000    1000.00    60.7816  
    180.0000    1000.00    59.5741  
    200.0000    1000.00    58.4577  
    220.0000    1000.00    57.4201  
    240.0000    1000.00    56.4516  
    260.0000    1000.00    55.5441  
    280.0000    1000.00    54.6908  
    300.0000    1000.00    53.8861  
    320.0000    1000.00    53.1251  
    340.0000    1000.00    52.4038  
    360.0000    1000.00    51.7186  
    380.0000    1000.00    51.0663  
    400.0000    1000.00    50.4443  
    420.0000    1000.00    49.8501  
    440.0000    1000.00    49.2816  
    460.0000    1000.00    48.7367  
    480.0000    1000.00    48.2138  
    500.0000    1000.00    47.7112  


      0.0000    1050.00    77.1544  
     20.0000    1050.00    73.9236  
     40.0000    1050.00    71.2316  
     60.0000    1050.00    68.9301  
     80.0000    1050.00    66.9235  
    100.0000    1050.00    65.1471  
    120.0000    1050.00    63.5551  
    140.0000    1050.00    62.1140  
    160.0000    1050.00    60.7987  
    180.0000    1050.00    59.5898  
    200.0000    1050.00    58.4722  
    220.0000    1050.00    57.4335  
    240.0000    1050.00    56.4641  
    260.0000    1050.00    55.5557  
    280.0000    1050.00    54.7016  
    300.0000    1050.00    53.8961  
    320.0000    1050.00    53.1345  
    340.0000    1050.00    52.4126  
    360.0000    1050.00    51.7269  
    380.0000    1050.00    51.0742  
    400.0000    1050.00    50.4517  
    420.0000    1050.00    49.8572  
    440.0000    1050.00    49.2882  
    460.0000    1050.00    48.7430  
    480.0000    1050.00    48.2198  
    500.0000    1050.00    47.7170  


      0.0000    1100.00    77.2071  
     20.0000    1100.00    73.9667  
     40.0000    1100.00    71.2677  
     60.0000    1100.00    68.9610  
     80.0000    1100.00    66.9505  
    100.0000    1100.00    65.1710  
    120.0000    1100.00    63.5765  
    140.0000    1100.00    62.1334  
    160.0000    1100.00    60.8164  
    180.0000    1100.00    59.6060  
    200.0000    1100.00    58.4871  
    220.0000    1100.00    57.4473  
    240.0000    1100.00    56.4769  
    260.0000    1100.00    55.5676  
    280.0000    1100.00    54.7127  
    300.0000    1100.00    53.9066  
    320.0000    1100.00    53.1443  
    340.0000    1100.00    52.4218  
    360.0000    1100.00    51.7356  
    380.0000    1100.00    51.0823  
    400.0000    1100.00    50.4595  
    420.0000    1100.00    49.8645  
    440.0000    1100.00    49.2952  
    460.0000    1100.00    48.7496  
    480.0000    1100.00    48.2261  
    500.0000    1100.00    47.7230  


      0.0000    1150.00    77.2607  
     20.0000    1150.00    74.0106  
     40.0000    1150.00    71.3045  
     60.0000    1150.00    68.9925  
     80.0000    1150.00    66.9780  
    100.0000    1150.00    65.1954  
    120.0000    1150.00    63.5984  
    140.0000    1150.00    62.1532  
    160.0000    1150.00    60.8344  
    180.0000    1150.00    59.6226  
    200.0000    1150.00    58.5024  
    220.0000    1150.00    57.4615  
    240.0000    1150.00    56.4901  
    260.0000    1150.00    55.5799  
    280.0000    1150.00    54.7242  
    300.0000    1150.00    53.9173  
    320.0000    1150.00    53.1544  
    340.0000    1150.00    52.4313  
    360.0000    1150.00    51.7445  
    380.0000    1150.00    51.0908  
    400.0000    1150.00    50.4674  
    420.0000    1150.00    49.8720  
    440.0000    1150.00    49.3024  
    460.0000    1150.00    48.7565  
    480.0000    1150.00    48.2326  
    500.0000    1150.00    47.7292  


      0.0000    1200.00    77.3151  
     20.0000    1200.00    74.0551  
     40.0000    1200.00    71.3419  
     60.0000    1200.00    69.0246  
     80.0000    1200.00    67.0061  
    100.0000    1200.00    65.2203  
    120.0000    1200.00    63.6207  
    140.0000    1200.00    62.1734  
    160.0000    1200.00    60.8529  
    180.0000    1200.00    59.6396  
    200.0000    1200.00    58.5181  
    220.0000    1200.00    57.4761  
    240.0000    1200.00    56.5036  
    260.0000    1200.00    55.5925  
    280.0000    1200.00    54.7360  
    300.0000    1200.00    53.9284  
    320.0000    1200.00    53.1648  
    340.0000    1200.00    52.4411  
    360.0000    1200.00    51.7537  
    380.0000    1200.00    51.0995  
    400.0000    1200.00    50.4757  
    420.0000    1200.00    49.8798  
    440.0000    1200.00    49.3098  
    460.0000    1200.00    48.7636  
    480.0000    1200.00    48.2394  
    500.0000    1200.00    47.7356  


      0.0000    1250.00    77.3702  
     20.0000    1250.00    74.1003  
     40.0000    1250.00    71.3799  
     60.0000    1250.00    69.0572  
     80.0000    1250.00    67.0346  
    100.0000    1250.00    65.2456  
    120.0000    1250.00    63.6434  
    140.0000    1250.00    62.1940  
    160.0000    1250.00    60.8718  
    180.0000    1250.00    59.6569  
    200.0000    1250.00    58.5341  
    220.0000    1250.00    57.4909  
    240.0000    1250.00    56.5174  
    260.0000    1250.00    55.6054  
    280.0000    1250.00    54.7481  
    300.0000    1250.00    53.9397  
    320.0000    1250.00    53.1754  
    340.0000    1250.00    52.4511  
    360.0000    1250.00    51.7632  
    380.0000    1250.00    51.1084  
    400.0000    1250.00    50.4841  
    420.0000    1250.00    49.8879  
    440.0000    1250.00    49.3174  
    460.0000    1250.00    48.7708  
    480.0000    1250.00    48.2463  
    500.0000    1250.00    47.7423  


      0.0000    1300.00    77.4260  
     20.0000    1300.00    74.1461  
     40.0000    1300.00    71.4184  
     60.0000    1300.00    69.0903  
     80.0000    1300.00    67.0635  
    100.0000    1300.00    65.2713  
    120.0000    1300.00    63.6665  
    140.0000    1300.00    62.2150  
    160.0000    1300.00    60.8909  
    180.0000    1300.00    59.6746  
    200.0000    1300.00    58.5504  
    220.0000    1300.00    57.5061  
    240.0000    1300.00    56.5315  
    260.0000    1300.00    55.6186  
    280.0000    1300.00    54.7604  
    300.0000    1300.00    53.9513  
    320.0000    1300.00    53.1863  
    340.0000    1300.00    52.4614  
    360.0000    1300.00    51.7728  
    380.0000    1300.00    51.1176  
    400.0000    1300.00    50.4928  
    420.0000    1300.00    49.8961  
    440.0000    1300.00    49.3253  
    460.0000    1300.00    48.7783  
    480.0000    1300.00    48.2535  
    500.0000    1300.00    47.7492  


      0.0000    1350.00    77.4824  
     20.0000    1350.00    74.1925  
     40.0000    1350.00    71.4573  
     60.0000    1350.00    69.1238  
     80.0000    1350.00    67.0928  
    100.0000    1350.00    65.2973  
    120.0000    1350.00    63.6900  
    140.0000    1350.00    62.2363  
    160.0000    1350.00    60.9104  
    180.0000    1350.00    59.6925  
    200.0000    1350.00    58.5670  
    220.0000    1350.00    57.5215  
    240.0000    1350.00    56.5459  
    260.0000    1350.00    55.6320  
    280.0000    1350.00    54.7730  
    300.0000    1350.00    53.9631  
    320.0000    1350.00    53.1975  
    340.0000    1350.00    52.4719  
    360.0000    1350.00    51.7827  
    380.0000    1350.00    51.1270  
    400.0000    1350.00    50.5017  
    420.0000    1350.00    49.9046  
    440.0000    1350.00    49.3333  
    460.0000    1350.00    48.7860  
    480.0000    1350.00    48.2608  
    500.0000    1350.00    47.7562  


      0.0000    1400.00    77.5394  
     20.0000    1400.00    74.2393  
     40.0000    1400.00    71.4968  
     60.0000    1400.00    69.1577  
     80.0000    1400.00    67.1225  
    100.0000    1400.00    65.3237  
    120.0000    1400.00    63.7137  
    140.0000    1400.00    62.2578  
    160.0000    1400.00    60.9301  
    180.0000    1400.00    59.7107  
    200.0000    1400.00    58.5838  
    220.0000    1400.00    57.5371  
    240.0000    1400.00    56.5605  
    260.0000    1400.00    55.6457  
    280.0000    1400.00    54.7858  
    300.0000    1400.00    53.9751  
    320.0000    1400.00    53.2088  
    340.0000    1400.00    52.4825  
    360.0000    1400.00    51.7928  
    380.0000    1400.00    51.1365  
    400.0000    1400.00    50.5108  
    420.0000    1400.00    49.9132  
    440.0000    1400.00    49.3415  
    460.0000    1400.00    48.7939  
    480.0000    1400.00    48.2683  
    500.0000    1400.00    47.7634  


      0.0000    1450.00    77.5969  
     20.0000    1450.00    74.2866  
     40.0000    1450.00    71.5366  
     60.0000    1450.00    69.1919  
     80.0000    1450.00    67.1525  
    100.0000    1450.00    65.3504  
    120.0000    1450.00    63.7377  
    140.0000    1450.00    62.2796  
    160.0000    1450.00    60.9501  
    180.0000    1450.00    59.7291  
    200.0000    1450.00    58.6009  
    220.0000    1450.00    57.5530  
    240.0000    1450.00    56.5753  
    260.0000    1450.00    55.6596  
    280.0000    1450.00    54.7988  
    300.0000    1450.00    53.9874  
    320.0000    1450.00    53.2203  
    340.0000    1450.00    52.4934  
    360.0000    1450.00    51.8031  
    380.0000    1450.00    51.1462  
    400.0000    1450.00    50.5200  
    420.0000    1450.00    49.9220  
    440.0000    1450.00    49.3499  
    460.0000    1450.00    48.8019  
    480.0000    1450.00    48.2760  
    500.0000    1450.00    47.7707  


      0.0000    1500.00    77.6550  
     20.0000    1500.00    74.3344  
     40.0000    1500.00    71.5768  
     60.0000    1500.00    69.2265  
     80.0000    1500.00    67.1828  
    100.0000    1500.00    65.3773  
    120.0000    1500.00    63.7620  
    140.0000    1500.00    62.3017  
    160.0000    1500.00    60.9703  
    180.0000    1500.00    59.7477  
    200.0000    1500.00    58.6182  
    220.0000    1500.00    57.5691  
    240.0000    1500.00    56.5903  
    260.0000    1500.00    55.6736  
    280.0000    1500.00    54.8120  
    300.0000    1500.00    53.9998  
    320.0000    1500.00    53.2320  
    340.0000    1500.00    52.5044  
    360.0000    1500.00    51.8135  
    380.0000    1500.00    51.1561  
    400.0000    1500.00    50.5294  
    420.0000    1500.00    49.9309  
    440.0000    1500.00    49.3584  
    460.0000    1500.00    48.8100  
    480.0000    1500.00    48.2838  
    500.0000    1500.00    47.7782  


      0.0000    1550.00    77.7136  
     20.0000    1550.00    74.3826  
     40.0000    1550.00    71.6174  
     60.0000    1550.00    69.2614  
     80.0000    1550.00    67.2134  
    100.0000    1550.00    65.4046  
    120.0000    1550.00    63.7865  
    140.0000    1550.00    62.3240  
    160.0000    1550.00    60.9908  
    180.0000    1550.00    59.7666  
    200.0000    1550.00    58.6357  
    220.0000    1550.00    57.5854  
    240.0000    1550.00    56.6055  
    260.0000    1550.00    55.6879  
    280.0000    1550.00    54.8254  
    300.0000    1550.00    54.0123  
    320.0000    1550.00    53.2438  
    340.0000    1550.00    52.5156  
    360.0000    1550.00    51.8241  
    380.0000    1550.00    51.1662  
    400.0000    1550.00    50.5389  
    420.0000    1550.00    49.9400  
    440.0000    1550.00    49.3671  
    460.0000    1550.00    48.8183  
    480.0000    1550.00    48.2917  
    500.0000    1550.00    47.7858  


      0.0000    1600.00    77.7726  
     20.0000    1600.00    74.4312  
     40.0000    1600.00    71.6583  
     60.0000    1600.00    69.2967  
     80.0000    1600.00    67.2443  
    100.0000    1600.00    65.4321  
    120.0000    1600.00    63.8113  
    140.0000    1600.00    62.3466  
    160.0000    1600.00    61.0115  
    180.0000    1600.00    59.7857  
    200.0000    1600.00    58.6533  
    220.0000    1600.00    57.6018  
    240.0000    1600.00    56.6209  
    260.0000    1600.00    55.7023  
    280.0000    1600.00    54.8389  
    300.0000    1600.00    54.0251  
    320.0000    1600.00    53.2558  
    340.0000    1600.00    52.5270  
    360.0000    1600.00    51.8348  
    380.0000    1600.00    51.1763  
    400.0000    1600.00    50.5486  
    420.0000    1600.00    49.9492  
    440.0000    1600.00    49.3759  
    460.0000    1600.00    48.8267  
    480.0000    1600.00    48.2998  
    500.0000    1600.00    47.7935  


      0.0000    1650.00    77.8321  
     20.0000    1650.00    74.4801  
     40.0000    1650.00    71.6996  
     60.0000    1650.00    69.3322  
     80.0000    1650.00    67.2754  
    100.0000    1650.00    65.4598  
    120.0000    1650.00    63.8363  
    140.0000    1650.00    62.3693  
    160.0000    1650.00    61.0323  
    180.0000    1650.00    59.8049  
    200.0000    1650.00    58.6712  
    220.0000    1650.00    57.6184  
    240.0000    1650.00    56.6364  
    260.0000    1650.00    55.7168  
    280.0000    1650.00    54.8526  
    300.0000    1650.00    54.0379  
    320.0000    1650.00    53.2679  
    340.0000    1650.00    52.5384  
    360.0000    1650.00    51.8457  
    380.0000    1650.00    51.1866  
    400.0000    1650.00    50.5584  
    420.0000    1650.00    49.9585  
    440.0000    1650.00    49.3848  
    460.0000    1650.00    48.8352  
    480.0000    1650.00    48.3079  
    500.0000    1650.00    47.8013  


      0.0000    1700.00    77.8919  
     20.0000    1700.00    74.5295  
     40.0000    1700.00    71.7411  
     60.0000    1700.00    69.3679  
     80.0000    1700.00    67.3068  
    100.0000    1700.00    65.4877  
    120.0000    1700.00    63.8614  
    140.0000    1700.00    62.3922  
    160.0000    1700.00    61.0533  
    180.0000    1700.00    59.8243  
    200.0000    1700.00    58.6892  
    220.0000    1700.00    57.6352  
    240.0000    1700.00    56.6521  
    260.0000    1700.00    55.7315  
    280.0000    1700.00    54.8664  
    300.0000    1700.00    54.0509  
    320.0000    1700.00    53.2802  
    340.0000    1700.00    52.5500  
    360.0000    1700.00    51.8567  
    380.0000    1700.00    51.1971  
    400.0000    1700.00    50.5683  
    420.0000    1700.00    49.9680  
    440.0000    1700.00    49.3938  
    460.0000    1700.00    48.8438  
    480.0000    1700.00    48.3162  
    500.0000    1700.00    47.8093  


      0.0000    1750.00    77.9522  
     20.0000    1750.00    74.5791  
     40.0000    1750.00    71.7830  
     60.0000    1750.00    69.4040  
     80.0000    1750.00    67.3384  
    100.0000    1750.00    65.5158  
    120.0000    1750.00    63.8868  
    140.0000    1750.00    62.4153  
    160.0000    1750.00    61.0745  
    180.0000    1750.00    59.8439  
    200.0000    1750.00    58.7073  
    220.0000    1750.00    57.6521  
    240.0000    1750.00    56.6680  
    260.0000    1750.00    55.7463  
    280.0000    1750.00    54.8803  
    300.0000    1750.00    54.0641  
    320.0000    1750.00    53.2926  
    340.0000    1750.00    52.5617  
    360.0000    1750.00    51.8678  
    380.0000    1750.00    51.2076  
    400.0000    1750.00    50.5783  
    420.0000    1750.00    49.9775  
    440.0000    1750.00    49.4029  
    460.0000    1750.00    48.8525  
    480.0000    1750.00    48.3246  
    500.0000    1750.00    47.8173  


      0.0000    1800.00    78.0129  
     20.0000    1800.00    74.6291  
     40.0000    1800.00    71.8251  
     60.0000    1800.00    69.4402  
     80.0000    1800.00    67.3702  
    100.0000    1800.00    65.5442  
    120.0000    1800.00    63.9123  
    140.0000    1800.00    62.4386  
    160.0000    1800.00    61.0959  
    180.0000    1800.00    59.8636  
    200.0000    1800.00    58.7256  
    220.0000    1800.00    57.6692  
    240.0000    1800.00    56.6839  
    260.0000    1800.00    55.7613  
    280.0000    1800.00    54.8944  
    300.0000    1800.00    54.0773  
    320.0000    1800.00    53.3051  
    340.0000    1800.00    52.5736  
    360.0000    1800.00    51.8790  
    380.0000    1800.00    51.2182  
    400.0000    1800.00    50.5884  
    420.0000    1800.00    49.9872  
    440.0000    1800.00    49.4121  
    460.0000    1800.00    48.8614  
    480.0000    1800.00    48.3330  
    500.0000    1800.00    47.8254  


      0.0000    1850.00    78.0739  
     20.0000    1850.00    74.6795  
     40.0000    1850.00    71.8675  
     60.0000    1850.00    69.4767  
     80.0000    1850.00    67.4022  
    100.0000    1850.00    65.5727  
    120.0000    1850.00    63.9380  
    140.0000    1850.00    62.4620  
    160.0000    1850.00    61.1173  
    180.0000    1850.00    59.8834  
    200.0000    1850.00    58.7441  
    220.0000    1850.00    57.6864  
    240.0000    1850.00    56.7000  
    260.0000    1850.00    55.7764  
    280.0000    1850.00    54.9086  
    300.0000    1850.00    54.0907  
    320.0000    1850.00    53.3177  
    340.0000    1850.00    52.5855  
    360.0000    1850.00    51.8903  
    380.0000    1850.00    51.2290  
    400.0000    1850.00    50.5987  
    420.0000    1850.00    49.9969  
    440.0000    1850.00    49.4214  
    460.0000    1850.00    48.8703  
    480.0000    1850.00    48.3416  
    500.0000    1850.00    47.8337  


      0.0000    1900.00    78.1353  
     20.0000    1900.00    74.7301  
     40.0000    1900.00    71.9102  
     60.0000    1900.00    69.5135  
     80.0000    1900.00    67.4344  
    100.0000    1900.00    65.6014  
    120.0000    1900.00    63.9639  
    140.0000    1900.00    62.4855  
    160.0000    1900.00    61.1390  
    180.0000    1900.00    59.9034  
    200.0000    1900.00    58.7626  
    220.0000    1900.00    57.7037  
    240.0000    1900.00    56.7162  
    260.0000    1900.00    55.7916  
    280.0000    1900.00    54.9229  
    300.0000    1900.00    54.1041  
    320.0000    1900.00    53.3304  
    340.0000    1900.00    52.5975  
    360.0000    1900.00    51.9017  
    380.0000    1900.00    51.2398  
    400.0000    1900.00    50.6090  
    420.0000    1900.00    50.0067  
    440.0000    1900.00    49.4308  
    460.0000    1900.00    48.8793  
    480.0000    1900.00    48.3502  
    500.0000    1900.00    47.8419  


      0.0000    1950.00    78.1971  
     20.0000    1950.00    74.7810  
     40.0000    1950.00    71.9531  
     60.0000    1950.00    69.5504  
     80.0000    1950.00    67.4668  
    100.0000    1950.00    65.6302  
    120.0000    1950.00    63.9899  
    140.0000    1950.00    62.5092  
    160.0000    1950.00    61.1607  
    180.0000    1950.00    59.9235  
    200.0000    1950.00    58.7813  
    220.0000    1950.00    57.7211  
    240.0000    1950.00    56.7325  
    260.0000    1950.00    55.8069  
    280.0000    1950.00    54.9372  
    300.0000    1950.00    54.1177  
    320.0000    1950.00    53.3432  
    340.0000    1950.00    52.6096  
    360.0000    1950.00    51.9132  
    380.0000    1950.00    51.2507  
    400.0000    1950.00    50.6193  
    420.0000    1950.00    50.0166  
    440.0000    1950.00    49.4403  
    460.0000    1950.00    48.8883  
    480.0000    1950.00    48.3589  
    500.0000    1950.00    47.8503  


      0.0000    2000.00    78.2592  
     20.0000    2000.00    74.8322  
     40.0000    2000.00    71.9963  
     60.0000    2000.00    69.5875  
     80.0000    2000.00    67.4994  
    100.0000    2000.00    65.6592  
    120.0000    2000.00    64.0161  
    140.0000    2000.00    62.5331  
    160.0000    2000.00    61.1826  
    180.0000    2000.00    59.9438  
    200.0000    2000.00    58.8001  
    220.0000    2000.00    57.7386  
    240.0000    2000.00    56.7489  
    260.0000    2000.00    55.8223  
    280.0000    2000.00    54.9517  
    300.0000    2000.00    54.1313  
    320.0000    2000.00    53.3561  
    340.0000    2000.00    52.6218  
    360.0000    2000.00    51.9248  
    380.0000    2000.00    51.2617  
    400.0000    2000.00    50.6298  
    420.0000    2000.00    50.0266  
    440.0000    2000.00    49.4498  
    460.0000    2000.00    48.8975  
    480.0000    2000.00    48.3677  
    500.0000    2000.00    47.8587  


      0.0000    2050.00    78.3216  
     20.0000    2050.00    74.8837  
     40.0000    2050.00    72.0397  
     60.0000    2050.00    69.6249  
     80.0000    2050.00    67.5321  
    100.0000    2050.00    65.6884  
    120.0000    2050.00    64.0424  
    140.0000    2050.00    62.5570  
    160.0000    2050.00    61.2046  
    180.0000    2050.00    59.9641  
    200.0000    2050.00    58.8190  
    220.0000    2050.00    57.7563  
    240.0000    2050.00    56.7654  
    260.0000    2050.00    55.8377  
    280.0000    2050.00    54.9663  
    300.0000    2050.00    54.1451  
    320.0000    2050.00    53.3691  
    340.0000    2050.00    52.6341  
    360.0000    2050.00    51.9364  
    380.0000    2050.00    51.2728  
    400.0000    2050.00    50.6404  
    420.0000    2050.00    50.0367  
    440.0000    2050.00    49.4595  
    460.0000    2050.00    48.9067  
    480.0000    2050.00    48.3765  
    500.0000    2050.00    47.8672  


      0.0000    2100.00    78.3843  
     20.0000    2100.00    74.9354  
     40.0000    2100.00    72.0833  
     60.0000    2100.00    69.6624  
     80.0000    2100.00    67.5650  
    100.0000    2100.00    65.7177  
    120.0000    2100.00    64.0688  
    140.0000    2100.00    62.5811  
    160.0000    2100.00    61.2267  
    180.0000    2100.00    59.9845  
    200.0000    2100.00    58.8380  
    220.0000    2100.00    57.7740  
    240.0000    2100.00    56.7820  
    260.0000    2100.00    55.8533  
    280.0000    2100.00    54.9810  
    300.0000    2100.00    54.1589  
    320.0000    2100.00    53.3822  
    340.0000    2100.00    52.6465  
    360.0000    2100.00    51.9481  
    380.0000    2100.00    51.2839  
    400.0000    2100.00    50.6510  
    420.0000    2100.00    50.0468  
    440.0000    2100.00    49.4691  
    460.0000    2100.00    48.9160  
    480.0000    2100.00    48.3854  
    500.0000    2100.00    47.8758  


      0.0000    2150.00    78.4474  
     20.0000    2150.00    74.9874  
     40.0000    2150.00    72.1271  
     60.0000    2150.00    69.7001  
     80.0000    2150.00    67.5981  
    100.0000    2150.00    65.7471  
    120.0000    2150.00    64.0954  
    140.0000    2150.00    62.6053  
    160.0000    2150.00    61.2489  
    180.0000    2150.00    60.0051  
    200.0000    2150.00    58.8571  
    220.0000    2150.00    57.7918  
    240.0000    2150.00    56.7986  
    260.0000    2150.00    55.8690  
    280.0000    2150.00    54.9957  
    300.0000    2150.00    54.1728  
    320.0000    2150.00    53.3953  
    340.0000    2150.00    52.6589  
    360.0000    2150.00    51.9599  
    380.0000    2150.00    51.2951  
    400.0000    2150.00    50.6616  
    420.0000    2150.00    50.0570  
    440.0000    2150.00    49.4789  
    460.0000    2150.00    48.9253  
    480.0000    2150.00    48.3944  
    500.0000    2150.00    47.8844  


      0.0000    2200.00    78.5107  
     20.0000    2200.00    75.0397  
     40.0000    2200.00    72.1711  
     60.0000    2200.00    69.7380  
     80.0000    2200.00    67.6313  
    100.0000    2200.00    65.7767  
    120.0000    2200.00    64.1220  
    140.0000    2200.00    62.6296  
    160.0000    2200.00    61.2713  
    180.0000    2200.00    60.0257  
    200.0000    2200.00    58.8762  
    220.0000    2200.00    57.8097  
    240.0000    2200.00    56.8154  
    260.0000    2200.00    55.8847  
    280.0000    2200.00    55.0105  
    300.0000    2200.00    54.1868  
    320.0000    2200.00    53.4085  
    340.0000    2200.00    52.6714  
    360.0000    2200.00    51.9718  
    380.0000    2200.00    51.3064  
    400.0000    2200.00    50.6724  
    420.0000    2200.00    50.0672  
    440.0000    2200.00    49.4887  
    460.0000    2200.00    48.9347  
    480.0000    2200.00    48.4034  
    500.0000    2200.00    47.8931  


      0.0000    2250.00    78.5744  
     20.0000    2250.00    75.0922  
     40.0000    2250.00    72.2154  
     60.0000    2250.00    69.7761  
     80.0000    2250.00    67.6646  
    100.0000    2250.00    65.8064  
    120.0000    2250.00    64.1488  
    140.0000    2250.00    62.6540  
    160.0000    2250.00    61.2937  
    180.0000    2250.00    60.0464  
    200.0000    2250.00    58.8955  
    220.0000    2250.00    57.8277  
    240.0000    2250.00    56.8322  
    260.0000    2250.00    55.9005  
    280.0000    2250.00    55.0254  
    300.0000    2250.00    54.2008  
    320.0000    2250.00    53.4218  
    340.0000    2250.00    52.6840  
    360.0000    2250.00    51.9837  
    380.0000    2250.00    51.3177  
    400.0000    2250.00    50.6832  
    420.0000    2250.00    50.0775  
    440.0000    2250.00    49.4985  
    460.0000    2250.00    48.9441  
    480.0000    2250.00    48.4125  
    500.0000    2250.00    47.9018  


      0.0000    2300.00    78.6383  
     20.0000    2300.00    75.1449  
     40.0000    2300.00    72.2598  
     60.0000    2300.00    69.8143  
     80.0000    2300.00    67.6981  
    100.0000    2300.00    65.8362  
    120.0000    2300.00    64.1757  
    140.0000    2300.00    62.6785  
    160.0000    2300.00    61.3162  
    180.0000    2300.00    60.0672  
    200.0000    2300.00    58.9149  
    220.0000    2300.00    57.8457  
    240.0000    2300.00    56.8492  
    260.0000    2300.00    55.9164  
    280.0000    2300.00    55.0404  
    300.0000    2300.00    54.2150  
    320.0000    2300.00    53.4351  
    340.0000    2300.00    52.6966  
    360.0000    2300.00    51.9957  
    380.0000    2300.00    51.3291  
    400.0000    2300.00    50.6940  
    420.0000    2300.00    50.0879  
    440.0000    2300.00    49.5085  
    460.0000    2300.00    48.9536  
    480.0000    2300.00    48.4216  
    500.0000    2300.00    47.9106  


      0.0000    2350.00    78.7025  
     20.0000    2350.00    75.1979  
     40.0000    2350.00    72.3045  
     60.0000    2350.00    69.8527  
     80.0000    2350.00    67.7318  
    100.0000    2350.00    65.8662  
    120.0000    2350.00    64.2027  
    140.0000    2350.00    62.7031  
    160.0000    2350.00    61.3388  
    180.0000    2350.00    60.0881  
    200.0000    2350.00    58.9343  
    220.0000    2350.00    57.8639  
    240.0000    2350.00    56.8661  
    260.0000    2350.00    55.9324  
    280.0000    2350.00    55.0554  
    300.0000    2350.00    54.2291  
    320.0000    2350.00    53.4486  
    340.0000    2350.00    52.7093  
    360.0000    2350.00    52.0078  
    380.0000    2350.00    51.3406  
    400.0000    2350.00    50.7050  
    420.0000    2350.00    50.0983  
    440.0000    2350.00    49.5184  
    460.0000    2350.00    48.9632  
    480.0000    2350.00    48.4307  
    500.0000    2350.00    47.9194  


      0.0000    2400.00    78.7670  
     20.0000    2400.00    75.2512  
     40.0000    2400.00    72.3493  
     60.0000    2400.00    69.8912  
     80.0000    2400.00    67.7655  
    100.0000    2400.00    65.8962  
    120.0000    2400.00    64.2298  
    140.0000    2400.00    62.7278  
    160.0000    2400.00    61.3615  
    180.0000    2400.00    60.1091  
    200.0000    2400.00    58.9538  
    220.0000    2400.00    57.8821  
    240.0000    2400.00    56.8832  
    260.0000    2400.00    55.9484  
    280.0000    2400.00    55.0705  
    300.0000    2400.00    54.2434  
    320.0000    2400.00    53.4620  
    340.0000    2400.00    52.7221  
    360.0000    2400.00    52.0199  
    380.0000    2400.00    51.3521  
    400.0000    2400.00    50.7159  
    420.0000    2400.00    50.1088  
    440.0000    2400.00    49.5284  
    460.0000    2400.00    48.9728  
    480.0000    2400.00    48.4400  
    500.0000    2400.00    47.9283  


      0.0000    2450.00    78.8318  
     20.0000    2450.00    75.3046  
     40.0000    2450.00    72.3943  
     60.0000    2450.00    69.9299  
     80.0000    2450.00    67.7994  
    100.0000    2450.00    65.9264  
    120.0000    2450.00    64.2570  
    140.0000    2450.00    62.7526  
    160.0000    2450.00    61.3842  
    180.0000    2450.00    60.1302  
    200.0000    2450.00    58.9734  
    220.0000    2450.00    57.9003  
    240.0000    2450.00    56.9003  
    260.0000    2450.00    55.9645  
    280.0000    2450.00    55.0856  
    300.0000    2450.00    54.2577  
    320.0000    2450.00    53.4755  
    340.0000    2450.00    52.7349  
    360.0000    2450.00    52.0320  
    380.0000    2450.00    51.3637  
    400.0000    2450.00    50.7269  
    420.0000    2450.00    50.1193  
    440.0000    2450.00    49.5385  
    460.0000    2450.00    48.9824  
    480.0000    2450.00    48.4492  
    500.0000    2450.00    47.9372  


      0.0000    2500.00    78.8968  
     20.0000    2500.00    75.3583  
     40.0000    2500.00    72.4395  
     60.0000    2500.00    69.9688  
     80.0000    2500.00    67.8335  
    100.0000    2500.00    65.9567  
    120.0000    2500.00    64.2843  
    140.0000    2500.00    62.7774  
    160.0000    2500.00    61.4071  
    180.0000    2500.00    60.1513  
    200.0000    2500.00    58.9930  
    220.0000    2500.00    57.9187  
    240.0000    2500.00    56.9175  
    260.0000    2500.00    55.9806  
    280.0000    2500.00    55.1008  
    300.0000    2500.00    54.2720  
    320.0000    2500.00    53.4891  
    340.0000    2500.00    52.7478  
    360.0000    2500.00    52.0442  
    380.0000    2500.00    51.3753  
    400.0000    2500.00    50.7380  
    420.0000    2500.00    50.1299  
    440.0000    2500.00    49.5486  
    460.0000    2500.00    48.9921  
    480.0000    2500.00    48.4585  
    500.0000    2500.00    47.9461  


      0.0000    2550.00    78.9622  
     20.0000    2550.00    75.4122  
     40.0000    2550.00    72.4849  
     60.0000    2550.00    70.0078  
     80.0000    2550.00    67.8676  
    100.0000    2550.00    65.9871  
    120.0000    2550.00    64.3117  
    140.0000    2550.00    62.8024  
    160.0000    2550.00    61.4300  
    180.0000    2550.00    60.1725  
    200.0000    2550.00    59.0127  
    220.0000    2550.00    57.9371  
    240.0000    2550.00    56.9348  
    260.0000    2550.00    55.9969  
    280.0000    2550.00    55.1161  
    300.0000    2550.00    54.2864  
    320.0000    2550.00    53.5027  
    340.0000    2550.00    52.7607  
    360.0000    2550.00    52.0565  
    380.0000    2550.00    51.3869  
    400.0000    2550.00    50.7491  
    420.0000    2550.00    50.1405  
    440.0000    2550.00    49.5587  
    460.0000    2550.00    49.0018  
    480.0000    2550.00    48.4679  
    500.0000    2550.00    47.9551  


      0.0000    2600.00    79.0277  
     20.0000    2600.00    75.4664  
     40.0000    2600.00    72.5305  
     60.0000    2600.00    70.0469  
     80.0000    2600.00    67.9019  
    100.0000    2600.00    66.0176  
    120.0000    2600.00    64.3392  
    140.0000    2600.00    62.8274  
    160.0000    2600.00    61.4530  
    180.0000    2600.00    60.1938  
    200.0000    2600.00    59.0325  
    220.0000    2600.00    57.9556  
    240.0000    2600.00    56.9521  
    260.0000    2600.00    56.0131  
    280.0000    2600.00    55.1314  
    300.0000    2600.00    54.3009  
    320.0000    2600.00    53.5164  
    340.0000    2600.00    52.7736  
    360.0000    2600.00    52.0688  
    380.0000    2600.00    51.3986  
    400.0000    2600.00    50.7603  
    420.0000    2600.00    50.1511  
    440.0000    2600.00    49.5689  
    460.0000    2600.00    49.0116  
    480.0000    2600.00    48.4773  
    500.0000    2600.00    47.9642  


      0.0000    2650.00    79.0936  
     20.0000    2650.00    75.5207  
     40.0000    2650.00    72.5763  
     60.0000    2650.00    70.0862  
     80.0000    2650.00    67.9363  
    100.0000    2650.00    66.0482  
    120.0000    2650.00    64.3668  
    140.0000    2650.00    62.8526  
    160.0000    2650.00    61.4761  
    180.0000    2650.00    60.2151  
    200.0000    2650.00    59.0523  
    220.0000    2650.00    57.9741  
    240.0000    2650.00    56.9694  
    260.0000    2650.00    56.0294  
    280.0000    2650.00    55.1468  
    300.0000    2650.00    54.3154  
    320.0000    2650.00    53.5301  
    340.0000    2650.00    52.7866  
    360.0000    2650.00    52.0811  
    380.0000    2650.00    51.4104  
    400.0000    2650.00    50.7714  
    420.0000    2650.00    50.1618  
    440.0000    2650.00    49.5792  
    460.0000    2650.00    49.0214  
    480.0000    2650.00    48.4867  
    500.0000    2650.00    47.9732  


      0.0000    2700.00    79.1597  
     20.0000    2700.00    75.5753  
     40.0000    2700.00    72.6222  
     60.0000    2700.00    70.1257  
     80.0000    2700.00    67.9708  
    100.0000    2700.00    66.0789  
    120.0000    2700.00    64.3945  
    140.0000    2700.00    62.8778  
    160.0000    2700.00    61.4993  
    180.0000    2700.00    60.2365  
    200.0000    2700.00    59.0723  
    220.0000    2700.00    57.9927  
    240.0000    2700.00    56.9869  
    260.0000    2700.00    56.0458  
    280.0000    2700.00    55.1622  
    300.0000    2700.00    54.3300  
    320.0000    2700.00    53.5439  
    340.0000    2700.00    52.7997  
    360.0000    2700.00    52.0935  
    380.0000    2700.00    51.4222  
    400.0000    2700.00    50.7827  
    420.0000    2700.00    50.1725  
    440.0000    2700.00    49.5894  
    460.0000    2700.00    49.0312  
    480.0000    2700.00    48.4961  
    500.0000    2700.00    47.9823  


      0.0000    2750.00    79.2260  
     20.0000    2750.00    75.6300  
     40.0000    2750.00    72.6683  
     60.0000    2750.00    70.1653  
     80.0000    2750.00    68.0055  
    100.0000    2750.00    66.1097  
    120.0000    2750.00    64.4222  
    140.0000    2750.00    62.9030  
    160.0000    2750.00    61.5225  
    180.0000    2750.00    60.2580  
    200.0000    2750.00    59.0922  
    220.0000    2750.00    58.0113  
    240.0000    2750.00    57.0043  
    260.0000    2750.00    56.0622  
    280.0000    2750.00    55.1777  
    300.0000    2750.00    54.3446  
    320.0000    2750.00    53.5577  
    340.0000    2750.00    52.8128  
    360.0000    2750.00    52.1060  
    380.0000    2750.00    51.4340  
    400.0000    2750.00    50.7939  
    420.0000    2750.00    50.1833  
    440.0000    2750.00    49.5997  
    460.0000    2750.00    49.0411  
    480.0000    2750.00    48.5056  
    500.0000    2750.00    47.9914  


      0.0000    2800.00    79.2926  
     20.0000    2800.00    75.6850  
     40.0000    2800.00    72.7146  
     60.0000    2800.00    70.2050  
     80.0000    2800.00    68.0402  
    100.0000    2800.00    66.1405  
    120.0000    2800.00    64.4500  
    140.0000    2800.00    62.9284  
    160.0000    2800.00    61.5458  
    180.0000    2800.00    60.2795  
    200.0000    2800.00    59.1122  
    220.0000    2800.00    58.0300  
    240.0000    2800.00    57.0218  
    260.0000    2800.00    56.0787  
    280.0000    2800.00    55.1932  
    300.0000    2800.00    54.3592  
    320.0000    2800.00    53.5716  
    340.0000    2800.00    52.8259  
    360.0000    2800.00    52.1184  
    380.0000    2800.00    51.4458  
    400.0000    2800.00    50.8053  
    420.0000    2800.00    50.1941  
    440.0000    2800.00    49.6101  
    460.0000    2800.00    49.0510  
    480.0000    2800.00    48.5151  
    500.0000    2800.00    48.0006  


      0.0000    2850.00    79.3595  
     20.0000    2850.00    75.7402  
     40.0000    2850.00    72.7610  
     60.0000    2850.00    70.2448  
     80.0000    2850.00    68.0751  
    100.0000    2850.00    66.1715  
    120.0000    2850.00    64.4780  
    140.0000    2850.00    62.9538  
    160.0000    2850.00    61.5691  
    180.0000    2850.00    60.3011  
    200.0000    2850.00    59.1323  
    220.0000    2850.00    58.0488  
    240.0000    2850.00    57.0394  
    260.0000    2850.00    56.0952  
    280.0000    2850.00    55.2088  
    300.0000    2850.00    54.3739  
    320.0000    2850.00    53.5855  
    340.0000    2850.00    52.8391  
    360.0000    2850.00    52.1309  
    380.0000    2850.00    51.4577  
    400.0000    2850.00    50.8166  
    420.0000    2850.00    50.2049  
    440.0000    2850.00    49.6204  
    460.0000    2850.00    49.0610  
    480.0000    2850.00    48.5247  
    500.0000    2850.00    48.0098  


      0.0000    2900.00    79.4266  
     20.0000    2900.00    75.7956  
     40.0000    2900.00    72.8076  
     60.0000    2900.00    70.2848  
     80.0000    2900.00    68.1100  
    100.0000    2900.00    66.2026  
    120.0000    2900.00    64.5060  
    140.0000    2900.00    62.9793  
    160.0000    2900.00    61.5925  
    180.0000    2900.00    60.3228  
    200.0000    2900.00    59.1524  
    220.0000    2900.00    58.0676  
    240.0000    2900.00    57.0570  
    260.0000    2900.00    56.1118  
    280.0000    2900.00    55.2244  
    300.0000    2900.00    54.3887  
    320.0000    2900.00    53.5994  
    340.0000    2900.00    52.8523  
    360.0000    2900.00    52.1435  
    380.0000    2900.00    51.4697  
    400.0000    2900.00    50.8280  
    420.0000    2900.00    50.2158  
    440.0000    2900.00    49.6308  
    460.0000    2900.00    49.0709  
    480.0000    2900.00    48.5343  
    500.0000    2900.00    48.0190  


      0.0000    2950.00    79.4939  
     20.0000    2950.00    75.8512  
     40.0000    2950.00    72.8544  
     60.0000    2950.00    70.3250  
     80.0000    2950.00    68.1451  
    100.0000    2950.00    66.2338  
    120.0000    2950.00    64.5340  
    140.0000    2950.00    63.0049  
    160.0000    2950.00    61.6160  
    180.0000    2950.00    60.3445  
    200.0000    2950.00    59.1726  
    220.0000    2950.00    58.0864  
    240.0000    2950.00    57.0747  
    260.0000    2950.00    56.1284  
    280.0000    2950.00    55.2400  
    300.0000    2950.00    54.4034  
    320.0000    2950.00    53.6134  
    340.0000    2950.00    52.8656  
    360.0000    2950.00    52.1561  
    380.0000    2950.00    51.4817  
    400.0000    2950.00    50.8394  
    420.0000    2950.00    50.2267  
    440.0000    2950.00    49.6412  
    460.0000    2950.00    49.0809  
    480.0000    2950.00    48.5439  
    500.0000    2950.00    48.0283  


      0.0000    3000.00    79.5615  
     20.0000    3000.00    75.9070  
     40.0000    3000.00    72.9014  
     60.0000    3000.00    70.3652  
     80.0000    3000.00    68.1803  
    100.0000    3000.00    66.2650  
    120.0000    3000.00    64.5622  
    140.0000    3000.00    63.0305  
    160.0000    3000.00    61.6395  
    180.0000    3000.00    60.3662  
    200.0000    3000.00    59.1929  
    220.0000    3000.00    58.1053  
    240.0000    3000.00    57.0924  
    260.0000    3000.00    56.1451  
    280.0000    3000.00    55.2557  
    300.0000    3000.00    54.4183  
    320.0000    3000.00    53.6275  
    340.0000    3000.00    52.8789  
    360.0000    3000.00    52.1687  
    380.0000    3000.00    51.4937  
    400.0000    3000.00    50.8508  
    420.0000    3000.00    50.2376  
    440.0000    3000.00    49.6517  
    460.0000    3000.00    49.0910  
    480.0000    3000.00    48.5535  
    500.0000    3000.00    48.0375  
